Folder: A-machine-learning-pipeline-for-estimation-of-Lithium-ion-battery-state-of-health/Data

Note: README.md
# A-machine-learning-pipeline-for-estimation-of-Lithium-ion-battery-state-of-health

File: dataset_test.csv
,Capacity dV CCCT,Charge time dV CCCT,Coefficient of skewness CCCV,Discharge_Q,Energy dV CCCT,Entropy dV CCCT,Entropy dV CCCT Shannon,Frechet Distance CC curve,Group,Hausdorff Distance CC curve,Kurtosis coefficient CCCV,Lagged Cumulated Discharge Capacity,Lagged Cumulated Discharge Energy,Lagged Pseudo Resistace,Lagged cycle time,Mean DV CCCV,Recovery Voltage,SOH_discharge_capacity,Slope CCCV-CCCT
0,575.536,0.00487269,0.0105972,735.336,575.536,0.130333,8.64746,0.846894,8005.0,6.39101,0.127964,0.0,0.0,0.0,0.0,0.481465,2.69981,1.0,18.4778
5,549.137,0.00476851,0.0158983,709.929,549.137,0.127251,8.63662,0.846858,8005.0,6.38576,0.1343,3614.92,11329.4,0.0172633,0.402417,0.473848,2.699775,0.965449,18.9643
10,534.59,0.00472222,0.0186343,695.558,534.59,0.128586,8.633,0.846841,8005.0,6.39527,0.138652,7135.25,22380.5,0.0172835,0.793946,0.469675,2.70005,0.945904,19.0652
15,518.362,0.00476852,0.0217091,678.644,518.362,0.129698,8.61839,0.846858,8005.0,6.43748,0.140955,10584.8,33223.1,0.017684,1.17731,0.465293,2.700145,0.922903,18.9308
20,501.316,0.00489583,0.0238848,661.116,501.316,0.129566,8.64746,0.846902,8005.0,6.55086,0.144313,13936.4,43773.3,0.0204593,1.54937,0.461756,2.70013,0.899066,18.407
25,488.352,0.00494212,0.023148,648.655,488.352,0.129156,8.67243,0.846918,8005.0,6.56641,0.142842,17216,54103.7,0.0233107,1.913,0.463419,2.7,0.882121,18.2431
30,476.853,0.00510417,0.0228323,636.619,476.853,0.127531,8.72451,0.84697,8005.0,6.65775,0.141887,20436,64250.1,0.0241117,2.26957,0.463761,2.70004,0.865752,17.7122
35,464.32,0.00517361,0.0220372,622.743,464.32,0.129482,8.73809,0.846991,8005.0,6.69148,0.140667,23592.4,74206.7,0.0240115,2.61879,0.464951,2.70016,0.846882,17.4595
40,453.612,0.00509259,0.0208677,614.413,453.612,0.127709,8.73809,0.846966,8005.0,6.62484,0.139278,26690.4,83991.6,0.02788,2.96138,0.466532,2.70005,0.835554,17.7209
45,322.578,0.00415509,0.023755,456.129,322.578,0.129393,8.43463,0.846606,8005.0,6.03316,0.144349,29741.2,93615.5,0.02919,3.29813,0.46213,2.699975,0.6203,21.6216
50,551.09,0.00474537,0.0150348,711.674,551.09,0.128308,8.61102,0.846849,8006.0,6.36115,0.133197,2894.22,9071.21,0.0203685,0.321936,0.475728,2.70016,0.971177,18.9733
55,535.94,0.00472222,0.0180513,696.026,535.94,0.126467,8.62205,0.846841,8006.0,6.38407,0.137548,6419.54,20135.6,0.0181715,0.713932,0.47079,2.70012,0.949824,19.0745
60,521.319,0.00472228,0.0204298,680.869,521.319,0.128085,8.58871,0.846841,8006.0,6.39973,0.139932,9868.83,30976.4,0.0200765,1.09733,0.466983,2.7,0.929141,19.0827
65,501.426,0.00483796,0.0230884,660.062,501.426,0.129774,8.62936,0.846882,8006.0,6.51594,0.143992,13221.9,41533.3,0.023896,1.4697,0.463988,2.69996,0.900745,18.6028
70,486.075,0.00497685,0.0236704,644.31,486.075,0.126053,8.66888,0.846929,8006.0,6.59593,0.143927,16491.6,51839.3,0.0230197,1.83229,0.461978,2.69979,0.87925,18.1089
75,474.942,0.0049537,0.0224481,633.996,474.942,0.12752,8.65464,0.846922,8006.0,6.55873,0.14191,19694.6,61946.9,0.025106,2.18715,0.462953,2.70011,0.865175,18.161
80,458.89,0.00510416,0.021554,620.331,458.89,0.128711,8.72792,0.84697,8006.0,6.65499,0.141379,22833.2,71859.9,0.0254208,2.53456,0.465156,2.69995,0.846528,17.6817
85,450.307,0.00509259,0.0209359,609.023,450.307,0.128049,8.71425,0.846966,8006.0,6.63267,0.1399,25908.8,81591.9,0.0311368,2.87458,0.465967,2.70019,0.831096,17.7062
90,432.8,0.00534722,0.0159312,586.384,432.8,0.136601,8.74819,0.847042,8006.0,6.5659,0.130024,28918.4,91107.1,0.0323385,3.20692,0.473584,2.69981,0.800202,16.8573
95,555.061,0.0047338,0.0158119,713.955,555.061,0.125118,8.61471,0.846845,8007.0,6.35205,0.133218,2165.31,6779.38,0.0168937,0.241018,0.475668,2.69991,0.979704,18.995
100,541.906,0.00471064,0.0184917,702.204,541.906,0.126445,8.59991,0.846837,8007.0,6.37193,0.137374,5707.33,17879.5,0.0175815,0.635026,0.471025,2.70009,0.963579,19.105
105,531.834,0.00468754,0.0200289,692.1,531.834,0.127443,8.62936,0.846829,8007.0,6.37071,0.139395,9197.63,28827.6,0.0170795,1.02293,0.467784,2.70013,0.949713,19.2076
110,518.426,0.00479167,0.023763,677.998,518.426,0.12651,8.64746,0.846866,8007.0,6.4802,0.143721,12629.1,39601.1,0.0192765,1.40404,0.463574,2.700165,0.930362,18.8161
115,508.437,0.00486111,0.02426,668.316,508.437,0.127262,8.64386,0.84689,8007.0,6.54942,0.146028,15999.8,50190.2,0.019738,1.77802,0.462201,2.69995,0.917077,18.5152
120,497.95,0.00491897,0.0236597,657.9,497.95,0.126651,8.66534,0.84691,8007.0,6.53362,0.141884,19318.1,60617.1,0.0210338,2.14584,0.462842,2.70012,0.902784,18.3385
125,488.06,0.00501157,0.0229642,646.832,488.06,0.12616,8.71768,0.846941,8007.0,6.58933,0.141343,22584.1,70882.5,0.023145,2.50758,0.463293,2.70007,0.887595,18.0563
130,478.401,0.00510417,0.0223556,637.262,478.401,0.128166,8.7211,0.84697,8007.0,6.65015,0.141058,25800.8,81000.5,0.0209408,2.86349,0.464806,2.70003,0.874464,17.6354
135,469.132,0.00505786,0.0217006,630.006,469.132,0.127533,8.70736,0.846956,8007.0,6.6153,0.140421,28973.4,90976.1,0.0254875,3.21435,0.465534,2.70002,0.864506,17.8045
140,456.568,0.00512731,0.0209443,618.955,456.568,0.127244,8.71425,0.846977,8007.0,6.64215,0.139065,32093.9,100777,0.0266627,3.55892,0.465649,2.69999,0.849342,17.6106
145,448.569,0.00513889,0.0207833,611.346,448.569,0.127262,8.73809,0.846981,8007.0,6.65185,0.139115,35172.4,110436,0.0272637,3.89838,0.466422,2.69995,0.838902,17.5321
150,440.735,0.00512731,0.0203651,604.652,440.735,0.127833,8.73809,0.846977,8007.0,6.63565,0.138108,38214.5,119971,0.028947,4.23352,0.468171,2.7,0.829715,17.5638
155,435.794,0.00518518,0.0208752,599.049,435.794,0.127355,8.71081,0.846995,8007.0,6.71323,0.141655,41222.5,129403,0.0317078,4.5647,0.464595,2.699975,0.822027,17.3528
160,427.975,0.00516203,0.0203099,592.769,427.975,0.128759,8.74147,0.846988,8007.0,6.66172,0.138585,44205.5,138756,0.0307053,4.89284,0.466302,2.699975,0.813409,17.4847
165,420.786,0.00518518,0.0203153,586.065,420.786,0.12987,8.73471,0.846995,8007.0,6.69665,0.139814,47154.1,147983,0.0376193,5.21683,0.467674,2.70018,0.80421,17.376
170,560.401,0.00480324,0.0128692,720.044,560.401,0.127597,8.63662,0.84687,8008.0,6.3867,0.131812,727.528,2279.58,0.0247448,0.080994,0.477117,2.69969,0.989713,18.8102
175,543.441,0.00469907,0.0172957,702.827,543.441,0.128237,8.60733,0.846833,8008.0,6.34166,0.135158,4281.08,13415.1,0.0168985,0.476108,0.473,2.70022,0.966048,19.1325
180,531.896,0.00467596,0.0188354,691.353,531.896,0.128063,8.58871,0.846824,8008.0,6.34699,0.137595,7769.91,24355.3,0.016592,0.864018,0.470518,2.6999,0.950276,19.2098
185,518.571,0.00474537,0.0228446,677.445,518.571,0.128311,8.61471,0.84685,8008.0,6.43209,0.142207,11201.6,35124.6,0.0196773,1.24534,0.464315,2.69969,0.931161,19.0306
190,507.696,0.00482639,0.0245647,666.34,507.696,0.127325,8.62571,0.846879,8008.0,6.51193,0.145155,14569,45701.8,0.0195137,1.61913,0.460977,2.70018,0.915896,18.7119
195,494.519,0.00493056,0.0240304,652.605,494.519,0.129182,8.66888,0.846914,8008.0,6.55602,0.143114,17876.5,56094.6,0.021339,1.98586,0.46348,2.69988,0.897016,18.2363
200,481.978,0.00498843,0.0226923,639.133,481.978,0.128604,8.66888,0.846933,8008.0,6.58073,0.141961,21120.2,66293.3,0.0224417,2.34518,0.463085,2.70004,0.8785,18.0414
205,470.703,0.00502314,0.0214871,629.14,470.703,0.128191,8.72451,0.846944,8008.0,6.57612,0.139299,24297.2,76293.3,0.023164,2.69677,0.465533,2.7,0.864765,18.0284
210,457.937,0.00509259,0.0208421,616.998,457.937,0.132501,8.73132,0.846967,8008.0,6.62788,0.139646,27419.5,86117.1,0.0266355,3.042,0.466037,2.70025,0.848075,17.6889
215,441.241,0.00523148,0.0204595,601.89,441.241,0.125773,8.74819,0.847009,8008.0,6.69628,0.137702,30478.4,95731.8,0.030735,3.37966,0.468493,2.70006,0.827309,17.2815
220,433.034,0.00506944,0.0196841,594.341,433.034,0.129372,8.69349,0.846959,8008.0,6.5875,0.137179,33474.8,105156,0.0327378,3.70994,0.468632,2.7001,0.816932,17.8168
225,423.172,0.00506944,0.0193505,585.132,423.172,0.127426,8.69349,0.846959,8008.0,6.59506,0.137866,36425.5,114424,0.0405805,4.03473,0.467898,2.70005,0.804274,17.8168
230,414.974,0.0052662,0.0200016,578.035,414.974,0.127558,8.76155,0.847019,8008.0,6.73063,0.138713,39332.6,123551,0.036271,4.35435,0.466826,2.70017,0.794519,17.1298
235,408.596,0.00504629,0.0191791,571.452,408.596,0.129751,8.68299,0.846952,8008.0,6.58374,0.137976,42212.4,132621,0.027136,4.67073,0.468373,2.69981,0.785471,17.827
240,397.694,0.00513889,0.0192026,562.967,397.694,0.132194,8.70736,0.846981,8008.0,6.6322,0.137351,45053.3,141530,0.0394635,4.98245,0.468241,2.70001,0.773808,17.5221
244,394.593,0.00505787,0.0190502,558.958,394.593,0.128053,8.7039,0.846955,8008.0,6.57792,0.136884,47298.1,148567,0.0488858,5.22839,0.469338,2.70009,0.768298,17.8259